* Measurement data measured by REW V5.20.3
* Source: Input device not selected, no input selected, R, volume: 0,000. Timing signal peak level -38,1 dBFS, measurement signal peak level -25,6 dBFS
* Format: 256k Log Swept Sine, 1 sweep at -12,0 dBFS using an acoustic timing reference
* Dated: 13.09.2022 17:18:52
* REW Settings:
*  C-weighting compensation: Off
*  Target level: 75.0 dB
* Note: ; Delay 0,3777 ms (130 mm, 5,1 in) using estimated IR delay relative to Acoustic reference on  R with no timing offset
* Measurement: Sep 134
* Smoothing: 1/48 octave
* Frequency Step: 1/96 octave
* Start Frequency: 20.145 Hz
*
* Freq(Hz) SPL(dB) Phase(degrees)
20.144928 44.619 -117.3749
20.290907 43.269 -122.0536
20.437943 41.909 -127.2629
20.586044 39.742 -128.7071
20.735220 36.017 -128.6967
20.885475 33.595 -113.6715
21.036821 33.891 -67.2655
21.189262 35.421 -15.1219
21.342808 37.034 -2.3892
21.497467 39.019 2.7999
21.653246 40.201 4.8332
21.810154 40.393 3.1896
21.968201 39.944 2.9573
22.127390 38.660 6.1599
22.287735 37.063 13.6738
22.449242 36.189 32.1118
22.611917 35.848 58.9304
22.775772 36.660 77.8475
22.940815 38.848 88.6768
23.107054 40.739 93.9703
23.274498 41.900 93.0869
23.443153 42.611 88.6007
23.613033 42.826 82.2018
23.784142 42.631 73.1827
23.956491 42.077 61.7473
24.130091 41.240 47.5873
24.304947 40.314 29.9532
24.481071 39.328 9.3564
24.658470 38.603 -12.7867
24.837156 38.063 -36.5584
25.017136 37.541 -60.5809
25.198421 37.082 -85.2490
25.381020 36.844 -112.7134
25.564941 36.858 -142.3597
25.750195 37.586 -170.4186
25.936790 38.889 163.1915
26.124741 40.011 141.9320
26.314051 40.950 124.9290
26.504732 41.277 109.9196
26.696796 41.011 95.9263
26.890253 39.859 79.6798
27.085112 38.231 58.5174
27.281382 36.508 22.6696
27.479073 35.727 -16.8158
27.678198 37.694 -51.5988
27.878765 39.964 -78.2233
28.080786 41.570 -92.4658
28.284271 42.449 -101.7946
28.489231 42.513 -107.1863
28.695675 41.849 -109.4337
28.903616 40.472 -107.4109
29.113064 38.227 -97.6168
29.324028 36.063 -79.2407
29.536524 34.917 -47.7026
29.750557 35.076 -20.4941
29.966141 36.647 -1.7832
30.183289 37.757 12.1140
30.402010 38.584 22.4686
30.622314 39.225 32.3577
30.844217 39.807 40.3230
31.067726 40.376 46.0179
31.292856 40.746 47.8801
31.519617 40.865 45.6384
31.748020 40.612 38.8190
31.978081 40.159 26.9512
32.209808 39.642 10.2587
32.443211 39.574 -10.2288
32.678310 39.942 -30.8798
32.915108 40.756 -49.6221
33.153625 41.464 -64.6873
33.393871 41.913 -77.0671
33.635857 41.934 -87.4031
33.879597 41.451 -97.3640
34.125103 40.411 -108.5295
34.372387 38.761 -122.4773
34.621464 36.445 -143.9702
34.872345 34.349 -173.9871
35.125042 33.207 147.6904
35.379574 33.820 117.5592
35.635948 34.580 96.1641
35.894180 34.623 84.4055
36.154285 33.358 80.6040
36.416275 31.190 92.5436
36.680161 29.938 119.8353
36.945961 32.187 159.5264
37.213688 34.867 172.0201
37.483353 36.991 167.7787
37.754974 38.224 152.8818
38.028561 39.071 132.0947
38.304131 40.020 108.5554
38.581699 41.054 85.4939
38.861279 42.030 65.2420
39.142883 42.630 49.0444
39.426529 42.635 36.2774
39.712231 41.965 26.3190
40.000000 40.585 18.6718
40.289856 38.527 12.7744
40.581814 35.947 7.5383
40.875885 33.752 -0.1738
41.172089 33.271 -11.7690
41.470440 34.619 -25.5840
41.770950 36.715 -37.9164
42.073643 38.222 -47.0494
42.378525 38.808 -53.0092
42.685616 38.352 -54.4484
42.994934 36.997 -47.9509
43.306492 35.927 -31.1069
43.620308 36.932 -8.1229
43.936401 40.242 3.0036
44.254780 43.733 -1.8586
44.575470 47.114 -16.1196
44.898483 50.297 -33.9731
45.223835 53.184 -52.0916
45.551544 55.695 -69.4313
45.881630 57.808 -86.2466
46.214108 59.555 -103.0950
46.548996 61.005 -120.2889
46.886307 62.240 -137.7185
47.226067 63.326 -154.8903
47.568283 64.296 -171.1422
47.912983 65.156 174.0459
48.260181 65.903 160.8724
48.609894 66.545 149.1926
48.962143 67.102 138.6204
49.316940 67.598 128.6943
49.674313 68.060 119.0417
50.034271 68.517 109.4785
50.396843 68.988 100.0085
50.762039 69.491 90.7371
51.129883 70.027 81.7590
51.500389 70.590 73.0909
51.873581 71.168 64.6711
52.249481 71.757 56.3967
52.628101 72.359 48.1586
53.009464 72.987 39.8561
53.393593 73.645 31.4117
53.780506 74.324 22.7998
54.170223 75.005 14.0726
54.562763 75.666 5.3473
54.958145 76.296 -3.2542
55.356396 76.896 -11.6799
55.757530 77.476 -19.9834
56.161572 78.038 -28.2867
56.568542 78.576 -36.6796
56.978462 79.079 -45.1271
57.391350 79.548 -53.4609
57.807232 80.004 -61.4604
58.226128 80.494 -68.9857
58.648056 81.073 -76.0979
59.073048 81.783 -83.1028
59.501114 82.620 -90.4958
59.932281 83.527 -98.7578
60.366577 84.412 -108.1121
60.804020 85.197 -118.3906
61.244629 85.850 -129.1178
61.688435 86.399 -139.7202
62.135452 86.928 -149.8501
62.585712 87.524 -159.6417
63.039234 88.206 -169.5797
63.496040 88.922 179.9788
63.956161 89.620 169.1284
64.419617 90.330 158.2396
64.886421 91.158 147.2941
65.356621 92.172 135.4907
65.830215 93.286 121.5469
66.307251 94.295 104.6532
66.787743 95.011 84.9380
67.271713 95.301 63.2600
67.759193 95.100 40.8885
68.250206 94.392 19.1980
68.744774 93.218 -0.3901
69.242928 91.711 -16.8038
69.744690 90.089 -30.0802
70.250084 88.578 -41.6329
70.759148 87.194 -53.0959
71.271896 85.737 -64.6211
71.788361 84.016 -74.7316
72.308571 82.044 -81.8643
72.832550 80.032 -85.9135
73.360321 78.162 -87.8939
73.891922 76.415 -87.7832
74.427376 74.864 -84.5221
74.966705 73.895 -78.9166
75.509949 73.685 -74.0673
76.057121 73.864 -71.2939
76.608261 74.165 -69.4529
77.163399 74.672 -67.7533
77.722557 75.467 -66.7769
78.285767 76.489 -67.1819
78.853058 77.675 -69.0562
79.424461 79.001 -72.3826
80.000000 80.428 -77.2809
80.579712 81.919 -83.7595
81.163628 83.472 -91.8179
81.751770 85.062 -101.9163
82.344177 86.573 -114.8464
82.940880 87.816 -131.0422
83.541901 88.633 -149.9662
84.147285 88.937 -170.3129
84.757050 88.724 169.6038
85.371231 88.074 151.1871
85.989868 87.138 135.1801
86.612984 86.101 121.3782
87.240616 85.085 109.0646
87.872803 84.124 97.6616
88.509560 83.208 86.8823
89.150940 82.324 76.4045
89.796967 81.443 65.7710
90.447670 80.520 54.5503
91.103088 79.513 42.3632
91.763260 78.359 28.8285
92.428215 76.931 13.6765
93.097992 75.035 -3.4261
93.772614 72.456 -24.2133
94.452133 69.004 -54.8687
95.136566 64.885 -105.5334
95.825966 63.021 -168.9309
96.520363 65.258 143.6196
97.219788 67.918 117.6636
97.924286 69.857 102.3621
98.633881 71.183 90.6606
99.348625 72.101 80.4185
100.068542 72.790 71.2585
100.793686 73.343 62.8875
101.524078 73.754 54.8210
102.259766 73.985 46.9314
103.000778 74.072 39.7812
103.747162 74.142 33.9846
104.498962 74.311 29.2788
105.256203 74.576 24.7078
106.018929 74.878 19.6304
106.787186 75.225 14.0586
107.561012 75.672 8.2039
108.340446 76.247 1.9670
109.125526 76.905 -5.1980
109.916290 77.543 -13.8381
110.712791 78.058 -23.9790
111.515060 78.376 -35.1509
112.323143 78.456 -46.6816
113.137085 78.300 -57.9219
113.956924 77.957 -68.4631
114.782700 77.487 -78.0659
115.614464 76.962 -86.3813
116.452255 76.514 -93.4482
117.296112 76.250 -100.3701
118.146095 76.088 -108.4382
119.002228 75.825 -117.7585
119.864563 75.275 -127.0415
120.733154 74.337 -133.6731
121.608040 73.319 -134.7444
122.489258 73.304 -131.5498
123.376869 74.724 -131.4131
124.270905 76.428 -139.4758
125.171425 77.656 -154.1555
126.078468 78.304 -171.9768
126.992081 78.489 168.9924
127.912323 78.317 149.3936
128.839233 77.767 129.2319
129.772842 76.717 108.6084
130.713242 75.050 89.0515
131.660431 72.673 74.7900
132.614502 69.516 73.1765
133.575485 66.198 90.3525
134.543427 65.977 115.1040
135.518387 68.601 125.0908
136.500412 70.836 118.1855
137.489548 72.174 104.7354
138.485855 72.962 91.6580
139.489380 73.701 81.0137
140.500168 74.618 71.5366
141.518295 75.585 61.4841
142.543793 76.477 50.3953
143.576721 77.275 38.6726
144.617142 78.013 26.8020
145.665100 78.718 14.5176
146.720642 79.286 1.0957
147.783844 79.528 -13.1814
148.854752 79.395 -26.4600
149.933411 79.101 -36.8403
151.019897 78.975 -44.4854
152.114243 79.187 -51.4397
153.216522 79.664 -59.5261
154.326797 80.193 -69.2690
155.445114 80.581 -80.5671
156.571533 80.728 -92.9780
157.706116 80.592 -105.4360
158.848923 80.153 -116.7207
160.000000 79.498 -125.9451
161.159424 78.831 -132.7688
162.327255 78.364 -137.8037
163.503540 78.206 -142.5486
164.688354 78.277 -148.3528
165.881760 78.393 -155.5925
167.083801 78.412 -164.0391
168.294571 78.224 -173.1050
169.514099 77.758 178.2197
170.742462 77.120 170.8574
171.979736 76.507 164.4209
173.225967 75.866 158.2964
174.481232 75.060 153.2800
175.745605 74.160 150.2317
177.019119 73.303 149.2197
178.301880 72.545 150.3037
179.593933 72.036 153.8484
180.895340 72.163 159.2620
182.206177 73.156 164.1567
183.526520 74.715 165.9919
184.856430 76.421 163.8020
186.195984 78.067 157.7405
187.545227 79.510 147.8237
188.904266 80.543 134.3589
190.273132 81.037 119.0659
191.651932 81.033 104.1323
193.040726 80.674 90.8958
194.439575 80.148 79.4111
195.848572 79.537 69.2153
197.267761 78.862 60.4673
198.697250 78.293 52.8936
200.137085 77.968 44.6577
201.587372 77.666 34.1697
203.048157 77.056 22.1636
204.519531 76.077 10.4314
206.001556 74.908 -1.1943
207.494324 73.603 -15.7224
208.997925 71.894 -38.1550
210.512405 69.402 -76.0664
212.037857 66.483 -135.8923
213.574371 65.947 155.0078
215.122025 68.016 102.9583
216.680893 69.915 72.8789
218.251053 71.109 54.6975
219.832581 71.745 41.1372
221.425583 72.007 29.8638
223.030121 72.017 19.6426
224.646286 71.678 9.9526
226.274170 70.849 2.7693
227.913849 69.680 2.0205
229.565399 69.182 9.0044
231.228928 70.503 17.4297
232.904510 72.587 18.5845
234.592224 74.281 11.3423
236.292191 75.422 -0.3708
238.004456 76.087 -13.6226
239.729126 76.311 -26.8347
241.466309 76.166 -38.4221
243.216080 75.940 -47.1040
244.978516 76.178 -53.4243
246.753738 77.225 -60.9697
248.541809 78.544 -75.0605
250.342850 79.305 -97.8477
252.156937 79.076 -126.6624
253.984161 77.747 -157.2366
255.824646 75.296 175.2981
257.678467 71.645 161.6177
259.545685 66.737 176.7114
261.426483 61.145 -151.3450
263.320862 58.130 -145.9614
265.229004 60.469 169.2908
267.150970 65.042 88.6772
269.086853 68.964 13.7153
271.036774 71.566 -35.9653
273.000824 73.197 -66.9800
274.979095 74.466 -88.0015
276.971710 75.801 -104.9526
278.978760 77.327 -122.0161
281.000336 78.833 -142.7046
283.036591 79.954 -169.0918
285.087585 80.355 158.8872
287.153442 79.737 124.1157
289.234283 77.950 92.5850
291.330200 75.124 70.3171
293.441284 71.966 58.4265
295.567688 70.406 50.5281
297.709503 71.484 36.0928
299.866821 73.383 10.8003
302.039795 75.149 -21.1362
304.228485 76.679 -55.0195
306.433044 78.098 -88.1343
308.653595 79.555 -120.4082
310.890228 80.773 -154.4829
313.143066 81.285 168.8589
315.412231 80.864 132.6113
317.697845 79.511 101.3940
320.000000 77.512 79.6201
322.318848 76.091 65.1914
324.654510 76.351 46.2822
327.007080 76.880 13.9771
329.376709 76.260 -28.5020
331.763519 74.002 -66.8389
334.167603 70.084 -78.9409
336.589142 65.434 -57.9980
339.028198 63.620 -42.2598
341.484924 64.184 -55.9092
343.959473 64.152 -79.1094
346.451935 63.963 -96.5693
348.962463 64.480 -110.1631
351.491211 65.708 -122.5898
354.038239 67.499 -136.1929
356.603760 69.042 -154.8911
359.187866 70.227 -175.1289
361.790680 71.566 164.9160
364.412354 72.750 140.9834
367.053040 73.118 112.3066
369.712860 72.444 83.2368
372.391968 70.703 59.9282
375.090454 67.933 50.5757
377.808533 65.108 57.4897
380.546265 64.893 68.7651
383.303864 66.752 70.4033
386.081451 68.263 60.0684
388.879150 68.994 45.5483
391.697144 69.426 32.3774
394.535522 69.881 19.6533
397.394501 70.184 5.8457
400.274170 70.218 -8.3242
403.174744 69.903 -21.5225
406.096313 69.467 -30.7778
409.039062 69.670 -39.0220
412.003113 70.017 -52.0615
414.988647 69.776 -66.4292
417.995850 69.500 -76.9053
421.024811 70.193 -87.3838
424.075714 71.207 -107.0278
427.148743 71.370 -137.3022
430.244049 70.421 -173.5605
433.361786 68.720 145.1616
436.502106 67.443 95.0801
439.665161 68.332 35.1934
442.851166 70.720 -30.0098
446.060242 72.655 -98.6875
449.292572 73.184 -173.9521
452.548340 72.025 103.4536
455.827698 69.448 20.8477
459.130798 66.996 -47.7773
462.457855 67.711 -101.0811
465.809021 69.973 -158.7886
469.184448 71.316 126.7510
472.584381 71.328 39.6162
476.008911 69.951 -46.3164
479.458252 67.065 -109.2202
482.932617 62.941 -130.0498
486.432159 60.721 -120.2236
489.957031 63.053 -121.9370
493.507477 65.312 -152.5000
497.083618 66.061 159.8364
500.685699 65.590 104.3462
504.313873 64.878 39.4043
507.968323 64.621 -36.5029
511.649292 64.659 -113.4834
515.356934 64.611 177.5264
519.091370 64.033 119.8662
522.852966 63.503 73.5508
526.641724 63.501 31.4556
530.458008 63.295 -4.3525
534.301941 64.064 -24.8311
538.173706 67.106 -35.6650
542.073547 70.180 -55.7568
546.001648 72.008 -88.6431
549.958191 72.700 -124.7744
553.943420 72.859 -161.7539
557.957520 72.673 149.7129
562.000671 71.659 78.3203
566.073181 70.598 -11.7979
570.175171 71.193 -98.8169
574.306885 72.293 -169.2393
578.468567 72.402 124.6753
582.660400 70.790 44.4922
586.882568 67.537 -48.7656
591.135376 65.568 -126.8018
595.419006 67.046 -174.4634
599.733643 68.422 153.2837
604.079590 68.880 128.2129
608.456970 69.155 106.8208
612.866089 69.598 82.7598
617.307190 69.748 47.5947
621.780457 68.886 0.8955
626.286133 67.710 -51.9141
630.824463 67.659 -104.7358
635.395691 68.746 -152.3291
640.000000 69.966 169.9502
644.637695 71.262 142.4141
649.309021 73.059 120.6646
654.014160 74.687 93.2280
658.753418 74.966 57.7046
663.527039 73.728 23.4536
668.335205 71.624 -6.8345
673.178284 69.288 -39.3457
678.056396 66.497 -76.3711
682.969849 64.132 -123.7871
687.918945 64.130 -177.3398
692.903870 66.453 140.3184
697.924927 68.997 106.0107
702.982422 70.652 72.9346
708.076477 71.265 41.1846
713.207520 70.745 14.1426
718.375732 69.588 -4.0781
723.581360 68.992 -19.1162
728.824707 68.869 -38.3496
734.106079 68.760 -64.0566
739.425720 68.755 -104.7842
744.783936 68.102 -170.9102
750.180908 67.460 108.1670
755.617065 69.062 30.7373
761.092529 71.172 -32.6592
766.607727 72.487 -82.3301
772.162903 73.352 -122.1172
777.758301 73.998 -158.5664
783.394287 73.954 166.1338
789.071045 73.323 134.7764
794.789001 72.383 107.3242
800.548340 71.045 84.2480
806.349487 69.398 68.0283
812.192627 67.954 56.8398
818.078125 66.829 51.2402
824.006226 66.251 44.5254
829.977295 65.028 44.5537
835.991699 64.423 51.6777
842.049622 64.371 48.8027
848.151428 63.775 48.2627
854.297485 64.815 58.9561
860.488098 68.010 67.4092
866.723572 70.576 60.0508
873.004211 71.571 43.9287
879.330322 72.467 35.7734
885.702332 74.301 28.4404
892.120483 75.430 11.1250
898.585144 75.738 -7.7754
905.096680 75.890 -25.9551
911.655396 75.484 -45.0898
918.261597 74.010 -57.8477
924.915710 72.526 -58.3760
931.618042 73.154 -54.7412
938.368896 74.572 -63.1504
945.168762 75.026 -82.3242
952.017822 74.895 -105.6826
958.916504 74.121 -137.8926
965.865234 72.637 171.2568
972.864319 71.422 93.1582
979.914062 71.947 4.5469
987.014954 72.987 -63.1611
994.167236 73.733 -108.5029
1001.371399 73.126 -147.9570
1008.627747 70.487 176.1602
1015.936646 67.264 111.2686
1023.298584 65.407 -20.4766
1030.713867 65.852 171.8848
1038.182739 68.169 19.6436
1045.705933 69.558 -87.0371
1053.283447 68.749 -172.4834
1060.916016 66.213 80.9668
1068.603882 64.453 -22.4844
1076.347412 66.401 -71.5137
1084.147095 69.883 -84.3379
1092.003296 72.704 -97.3418
1099.916382 74.454 -117.6758
1107.886841 75.227 -140.8848
1115.915039 75.087 -163.8584
1124.001343 74.182 175.7109
1132.146362 72.296 166.1133
1140.350342 70.824 175.7168
1148.613770 72.089 -176.4805
1156.937134 73.375 172.3887
1165.320801 73.657 156.5557
1173.765137 73.742 149.1465
1182.270752 74.205 140.8281
1190.838013 73.976 123.5381
1199.467285 72.912 109.4766
1208.159180 71.647 107.6846
1216.913940 71.749 103.9092
1225.732178 71.639 89.8711
1234.614380 70.609 83.4844
1243.560913 70.825 84.6113
1252.572266 71.300 72.4844
1261.648926 70.074 59.0010
1270.791382 68.346 56.7266
1280.000000 68.283 58.1270
1289.275391 69.832 53.4580
1298.618042 70.235 35.9004
1308.028320 68.955 23.0488
1317.506836 68.560 -5.8770
1327.054077 68.903 -93.0039
1336.670410 69.688 141.4365
1346.356567 70.280 44.3262
1356.112793 70.027 -13.0547
1365.939697 68.659 -63.6924
1375.837891 66.041 -126.5928
1385.807739 64.454 151.5215
1395.849854 64.909 81.3027
1405.964844 67.057 51.6162
1416.152954 70.043 37.6562
1426.415039 72.006 17.9443
1436.751465 73.748 -0.4229
1447.162720 75.247 -23.8379
1457.649414 75.661 -54.9766
1468.212158 74.897 -85.8535
1478.851440 72.489 -101.9023
1489.567871 69.890 -95.8604
1500.361816 70.472 -88.5879
1511.234131 73.072 -93.0840
1522.185059 74.800 -115.7783
1533.215454 74.297 -147.1074
1544.325806 72.665 -169.8604
1555.516602 71.010 166.2188
1566.788574 68.088 133.6777
1578.142090 65.783 41.4453
1589.578003 68.487 -169.0508
1601.096680 71.898 -38.7246
1612.698975 72.558 166.1924
1624.385254 71.245 35.9629
1636.156250 71.220 -106.3018
1648.012451 72.325 136.2891
1659.954590 71.892 42.3311
1671.983398 69.819 -46.1514
1684.099243 69.046 -122.5801
1696.302856 70.417 165.9785
1708.594971 70.125 85.2100
1720.976196 67.966 -21.4082
1733.447144 65.306 -161.8516
1746.008423 63.407 85.0537
1758.660645 64.060 10.5986
1771.404663 66.664 -102.8613
1784.240967 69.536 93.4160
1797.170288 71.453 -42.1406
1810.193359 71.493 -119.4131
1823.310791 71.086 -154.9502
1836.523193 71.958 173.7344
1849.831421 72.187 115.1963
1863.236084 72.468 16.5537
1876.737793 74.588 -107.9551
1890.337524 75.746 151.8262
1904.035645 74.187 94.2197
1917.833008 70.768 72.7480
1931.730469 68.377 63.2783
1945.728638 69.931 32.9785
1959.828125 72.697 -42.7871
1974.029907 73.915 -144.5381
1988.334473 73.575 120.4043
2002.742798 73.169 13.4238
2017.255493 74.722 -120.5869
2031.873291 76.088 129.9551
2046.597168 75.739 63.2695
2061.427734 73.778 2.6787
2076.365479 71.636 -94.6123
2091.411865 72.029 150.5498
2106.566895 73.084 74.0039
2121.832031 72.961 42.2842
2137.207764 72.754 31.1523
2152.694824 72.296 28.4336
2168.294189 72.857 29.6230
2184.006592 73.407 25.1895
2199.832764 75.242 23.6543
2215.773682 77.257 2.5996
2231.830078 77.740 -36.2559
2248.002686 76.031 -68.0059
2264.292725 72.874 -84.5205
2280.700684 71.199 -147.5283
2297.227539 70.117 62.3574
2313.874268 69.158 -125.5078
2330.641602 68.858 41.0039
2347.530273 68.087 168.9395
2364.541504 68.213 -69.1504
2381.676025 70.415 109.2148
2398.934570 72.723 -21.9238
2416.318359 73.475 -163.6758
2433.827881 73.373 53.2656
2451.464355 72.783 -62.4922
2469.228760 71.898 -173.8516
2487.121826 72.461 66.6504
2505.144531 72.552 -41.0312
2523.297852 71.049 -140.3789
2541.582764 70.313 86.4980
2560.000000 72.237 -100.1211
2578.550781 74.204 96.2891
2597.236084 75.151 11.3984
2616.056641 75.964 -25.6289
2635.013672 78.386 -49.8867
2654.108154 80.830 -90.4746
2673.340820 80.640 -152.1289
2692.713135 78.320 148.1406
2712.225586 75.910 96.1016
2731.879395 75.011 45.1621
2751.675781 75.050 -57.8418
2771.615479 73.204 109.3711
2791.699707 70.460 -122.0508
2811.929688 71.074 62.6758
2832.305908 72.696 -54.8828
2852.830078 73.419 175.0996
2873.502930 73.869 33.7480
2894.325439 73.453 -96.4805
2915.298828 73.585 94.8867
2936.424316 73.692 -129.9375
2957.702881 71.971 -13.1445
2979.135742 71.768 152.9824
3000.723633 73.241 11.2266
3022.468262 72.872 -129.6582
3044.370117 71.372 48.1074
3066.430908 69.653 -169.9180
3088.651611 68.636 -30.6582
3111.033203 69.603 105.2656
3133.577148 71.292 -105.8809
3156.284180 73.435 70.9688
3179.156006 74.043 -69.8672
3202.193359 72.597 145.8711
3225.397949 70.599 -41.4219
3248.770508 72.179 148.0391
3272.312500 75.415 53.3906
3296.024902 77.551 4.2988
3319.909180 78.740 -30.5703
3343.966797 79.328 -64.5469
3368.198486 78.968 -113.1445
3392.605713 77.101 158.3887
3417.189941 74.558 24.6016
3441.952393 73.025 -106.1816
3466.894287 71.324 111.1836
3492.016846 70.716 -89.0586
3517.321289 72.671 68.5234
3542.809326 73.870 -71.7344
3568.481934 73.615 167.0098
3594.340576 73.061 -9.5547
3620.386719 72.177 138.3281
3646.621582 72.085 -82.7578
3673.046387 71.978 64.3809
3699.662842 70.951 159.0703
3726.472168 71.917 -177.0645
3753.475586 75.826 -128.1719
3780.675049 77.732 4.9941
3808.071289 76.096 -127.0312
3835.666016 72.428 112.3164
3863.460938 70.854 -50.3691
3891.457275 72.469 163.2871
3919.656250 73.288 24.1387
3948.059814 72.881 -145.4902
3976.668945 73.865 58.0801
4005.485596 74.608 -27.6777
4034.510986 74.009 -74.5234
4063.746582 72.709 -160.3672
4093.194336 70.981 -2.0508
4122.855469 70.325 53.5801
4152.730957 72.162 114.0879
4182.823730 73.794 -105.1543
4213.133789 74.487 70.1230
4243.664062 75.149 -103.3770
4274.415527 74.196 80.6680
4305.389648 73.081 -48.8047
4336.588379 74.529 -133.6406
4368.013184 75.154 10.9531
4399.665527 73.154 -25.3984
4431.547363 70.824 -46.2090
4463.660156 69.389 31.5918
4496.005371 69.922 163.6328
4528.585449 72.557 -9.0449
4561.401367 73.590 -126.0625
4594.455078 72.000 72.8652
4627.748535 71.073 153.8359
4661.283203 72.175 -157.4785
4695.060547 71.199 -139.7148
4729.083008 68.210 -179.0234
4763.352051 67.128 158.5195
4797.869141 68.086 -142.2422
4832.636719 69.293 -36.2305
4867.655762 69.083 63.1172
4902.928711 69.352 87.6562
4938.457520 69.946 134.6328
4974.243652 69.127 -54.0312
5010.289062 67.925 113.4141
5046.595703 67.847 149.2031
5083.165527 68.970 161.5781
5120.000000 71.673 -94.8438
5157.101562 73.311 83.1719
5194.472168 73.099 -39.1172
5232.113281 72.796 -175.5469
5270.027344 73.537 1.6406
5308.216309 73.421 147.5547
5346.681641 72.361 -125.1406
5385.426270 73.011 -72.6562
5424.451172 74.529 -59.0469
5463.758789 74.976 -55.5820
5503.351562 72.922 -18.9727
5543.230957 71.363 44.4023
5583.399414 70.908 149.5703
5623.859375 70.839 -89.3672
5664.611816 71.817 51.3242
5705.660156 72.215 -101.2031
5747.005859 71.912 110.2031
5788.650879 72.290 -167.0078
5830.597656 73.320 177.3945
5872.848633 73.817 179.5820
5915.405762 74.844 -122.3008
5958.271484 76.128 -30.6328
6001.447266 75.926 79.3672
6044.936523 74.331 156.1406
6088.740234 73.320 -178.2578
6132.861816 74.011 -60.2656
6177.303223 75.158 -159.4414
6222.066406 75.437 157.0859
6267.154297 75.814 92.2422
6312.568359 74.772 -74.8828
6358.312012 72.158 29.8203
6404.386719 71.573 -156.8125
6450.795898 72.407 113.4609
6497.541016 72.543 -12.4961
6544.625000 72.271 56.3711
6592.049805 73.439 -9.8281
6639.818359 75.436 -21.1055
6687.933594 76.649 146.9336
6736.396973 76.985 36.9766
6785.211426 76.402 -121.2773
6834.379883 76.131 19.9609
6883.904785 76.288 176.4922
6933.788574 75.685 -12.6055
6984.033691 74.275 84.9219
7034.642578 74.067 -152.3945
7085.618652 75.597 106.8594
7136.963867 76.737 68.0508
7188.681152 77.010 24.9766
7240.773438 76.554 -90.0156
7293.243164 75.450 -17.7812
7346.092773 74.940 -54.7383
7399.325684 75.082 -76.5039
7452.944336 74.971 -93.9219
7506.951172 75.287 -134.6992
7561.350098 76.420 -116.5820
7616.142578 76.770 -1.9102
7671.332031 76.003 121.8828
7726.921875 75.279 -109.7930
7782.914551 74.949 82.2344
7839.312500 74.976 -58.9062
7896.119629 74.087 78.3164
7953.337891 74.150 128.1328
8010.971191 75.108 148.2305
8069.021973 74.962 -164.1016
8127.493164 74.096 -58.2266
8186.388672 73.683 60.1406
8245.710938 72.868 165.9141
8305.461914 71.149 -172.7734
8365.647461 70.476 70.0859
8426.267578 71.579 -117.3867
8487.328125 72.263 124.8281
8548.831055 71.965 165.8359
8610.779297 71.580 -18.5469
8673.176758 71.195 156.6094
8736.026367 70.296 -141.4922
8799.331055 69.267 51.5430
8863.094727 69.425 -21.1328
8927.320312 70.097 156.4766
8992.010742 71.097 82.7109
9057.170898 72.295 -91.6797
9122.802734 73.114 -40.9102
9188.910156 73.004 73.4102
9255.497070 72.938 35.7188
9322.566406 73.518 -128.3281
9390.121094 73.430 144.5859
9458.166016 72.289 153.4258
9526.704102 72.545 157.6445
9595.738281 73.146 113.0391
9665.273438 72.566 18.2930
9735.311523 72.108 -52.1641
9805.857422 72.471 29.9531
9876.915039 72.546 159.9766
9948.487305 71.468 -123.3438
10020.578125 70.602 -41.7109
10093.191406 70.616 53.4766
10166.331055 70.007 175.8633
10240.000000 68.747 17.8867
10314.203125 68.742 -102.4883
10388.944336 69.985 57.0508
10464.226562 71.262 120.2539
10540.054688 70.889 142.6758
10616.432617 69.094 -174.9375
10693.363281 68.500 -43.3672
10770.852539 68.210 132.8359
10848.902344 67.694 -40.5078
10927.517578 67.667 144.3125
11006.703125 67.969 -20.4062
11086.461914 68.979 -164.1094
11166.798828 69.437 -37.0234
11247.718750 70.084 -16.1016
11329.223633 70.542 -86.0391
11411.320312 69.931 49.0312
11494.011719 69.541 -177.3281
11577.301758 69.844 81.9297
11661.195312 70.266 58.6797
11745.697266 68.896 73.4531
11830.811523 66.490 62.1328
11916.542969 65.793 40.7969
12002.894531 67.337 31.7266
12089.873047 68.520 96.1094
12177.480469 69.059 -95.3047
12265.723633 69.359 70.2344
12354.606445 68.956 137.3594
12444.132812 68.237 -163.6953
12534.308594 66.596 -132.6406
12625.136719 65.774 159.4844
12716.624023 67.247 72.7422
12808.773438 68.882 38.3047
12901.591797 69.775 40.1484
12995.082031 70.280 120.4766
13089.250000 70.297 -95.2578
13184.099609 70.399 36.8594
13279.636719 70.316 42.0625
13375.867188 69.611 -165.2031
13472.793945 69.083 -155.0703
13570.422852 67.939 -149.4453
13668.759766 67.697 14.3203
13767.809570 67.933 53.6328
13867.577148 68.229 168.0156
13968.067383 67.351 -129.5391
14069.285156 65.322 169.4062
14171.237305 64.407 -0.0547
14273.927734 65.069 -170.6719
14377.362305 65.660 -179.8203
14481.546875 65.642 -117.1484
14586.486328 65.577 154.7734
14692.185547 65.209 -126.6250
14798.651367 65.691 -149.7656
14905.888672 67.315 -61.2578
15013.902344 67.764 -139.8594
15122.700195 66.978 119.7422
15232.285156 65.561 -126.7734
15342.664062 64.954 -93.0859
15453.843750 65.850 -71.3516
15565.829102 66.758 -24.9766
15678.625000 66.168 147.6328
15792.239258 64.317 121.2109
15906.675781 62.359 175.2656
16021.942383 61.571 177.7656
16138.043945 62.143 178.6484
16254.986328 62.703 175.6641
16372.777344 62.130 -145.6875
16491.421875 61.116 -93.1016
16610.923828 60.283 -121.6953
16731.294922 60.156 151.0312
16852.535156 61.894 57.4375
16974.656250 63.838 -51.3516
17097.662109 64.975 -104.4453
17221.558594 65.318 -121.0391
17346.353516 64.319 22.6172
17472.052734 63.390 -57.9375
17598.662109 64.108 -96.4531
17726.189453 65.658 -11.6719
17854.640625 67.803 82.0000
17984.021484 69.024 159.8281
18114.341797 68.600 -54.9141
18245.605469 67.301 -7.5156
18377.820312 66.539 -135.7031
18510.994141 67.548 97.7188
18645.132812 68.988 143.8516
18780.242188 69.380 46.0625
18916.332031 68.224 11.9062
19053.408203 66.777 -94.7500
19191.476562 66.214 130.2344
19330.546875 65.936 9.0625
19470.623047 64.833 -135.9141
19611.714844 64.086 -37.9688
19753.830078 63.537 46.4062
19896.974609 62.202 -122.4609
