* Measurement data measured by REW V5.20.3
* Source: Input device not selected, no input selected, R, volume: 0,000. Timing signal peak level -37,1 dBFS, measurement signal peak level -26,4 dBFS
* Format: 256k Log Swept Sine, 1 sweep at -12,0 dBFS using an acoustic timing reference
* Dated: 13.09.2022 17:18:17
* REW Settings:
*  C-weighting compensation: Off
*  Target level: 75.0 dB
* Note: ; Delay 3,6073 ms (1,237 m, 4 ft 0,7 in) using estimated IR delay relative to Acoustic reference on  R with no timing offset
* Measurement: Sep 132
* Smoothing: 1/48 octave
* Frequency Step: 1/96 octave
* Start Frequency: 20.145 Hz
*
* Freq(Hz) SPL(dB) Phase(degrees)
20.144928 42.586 103.8114
20.290907 42.352 98.7556
20.437943 42.117 90.9090
20.586044 41.564 80.5995
20.735220 40.403 67.7931
20.885475 39.433 51.6909
21.036821 38.836 29.9535
21.189262 38.604 6.8707
21.342808 39.082 -11.4172
21.497467 40.177 -26.4143
21.653246 41.026 -37.1524
21.810154 41.555 -43.1048
21.968201 41.826 -45.5552
22.127390 41.717 -45.0452
22.287735 41.395 -41.4732
22.449242 41.109 -34.9825
22.611917 40.819 -25.6959
22.775772 40.796 -16.4915
22.940815 41.085 -7.0737
23.107054 41.325 0.6305
23.274498 41.511 5.7308
23.443153 41.381 9.5483
23.613033 40.806 11.4341
23.784142 39.654 14.3189
23.956491 37.271 18.5960
24.130091 34.563 30.5707
24.304947 33.199 73.3981
24.481071 32.933 131.0344
24.658470 34.672 157.4882
24.837156 37.839 163.1140
25.017136 39.667 165.5649
25.198421 40.526 163.2002
25.381020 40.791 160.0232
25.564941 40.434 155.4023
25.750195 39.508 148.5928
25.936790 38.052 139.1526
26.124741 36.300 123.1396
26.314051 34.494 101.7223
26.504732 34.220 77.9852
26.696796 35.031 54.1117
26.890253 36.273 39.9272
27.085112 37.724 32.0527
27.281382 38.663 28.0177
27.479073 39.237 26.4701
27.678198 39.427 25.6678
27.878765 39.151 24.2957
28.080786 38.386 22.1186
28.284271 36.830 14.7334
28.489231 34.426 1.1686
28.695675 32.866 -33.8809
28.903616 32.402 -81.9150
29.113064 34.702 -111.1982
29.324028 37.691 -129.4317
29.536524 39.451 -137.5450
29.750557 40.454 -141.0675
29.966141 40.683 -141.4187
30.183289 40.279 -138.5636
30.402010 39.385 -131.7285
30.622314 38.164 -119.0106
30.844217 37.308 -102.7830
31.067726 37.096 -83.9209
31.292856 37.287 -69.7420
31.519617 37.451 -60.3327
31.748020 36.980 -55.5706
31.978081 35.440 -59.6888
32.209808 33.040 -78.2955
32.443211 30.859 -144.6757
32.678310 31.154 161.5661
32.915108 34.952 147.3910
33.153625 37.752 144.8850
33.393871 39.840 144.4226
33.635857 41.145 146.3385
33.879597 41.873 147.5251
34.125103 41.976 147.9348
34.372387 41.415 147.4263
34.621464 39.950 148.9083
34.872345 37.439 153.1848
35.125042 34.027 172.1727
35.379574 33.650 -127.7388
35.635948 35.187 -83.1662
35.894180 37.664 -74.0451
36.154285 38.540 -75.3837
36.416275 38.268 -78.2068
36.680161 37.076 -77.2706
36.945961 35.311 -68.0348
37.213688 35.100 -49.4660
37.483353 36.359 -34.9155
37.754974 38.488 -30.2161
38.028561 39.942 -34.1092
38.304131 40.567 -40.4815
38.581699 40.323 -45.6225
38.861279 39.258 -45.7707
39.142883 37.522 -36.8089
39.426529 36.456 -17.3702
39.712231 36.612 1.3327
40.000000 37.375 14.1508
40.289856 37.496 21.1094
40.581814 36.492 29.3856
40.875885 34.988 45.5530
41.172089 34.307 65.4865
41.470440 34.671 80.7266
41.770950 35.159 82.6433
42.073643 34.556 72.2638
42.378525 32.708 49.4377
42.685616 30.383 12.5180
42.994934 29.435 -28.7475
43.306492 30.714 -61.0881
43.620308 33.408 -76.8404
43.936401 36.653 -82.6004
44.254780 40.075 -87.6895
44.575470 43.291 -95.5458
44.898483 46.151 -105.6789
45.223835 48.644 -116.6377
45.551544 50.837 -127.2827
45.881630 52.815 -137.2369
46.214108 54.644 -146.7857
46.548996 56.346 -156.5700
46.886307 57.899 -167.2124
47.226067 59.262 -179.0366
47.568283 60.413 168.0071
47.912983 61.357 154.2621
48.260181 62.127 140.2689
48.609894 62.775 126.6684
48.962143 63.360 114.0648
49.316940 63.936 102.8535
49.674313 64.545 93.0797
50.034271 65.200 84.4253
50.396843 65.888 76.3524
50.762039 66.583 68.3344
51.129883 67.260 60.0443
51.500389 67.916 51.4266
51.873581 68.566 42.6470
52.249481 69.235 33.9581
52.628101 69.946 25.5381
53.009464 70.695 17.3823
53.393593 71.460 9.3179
53.780506 72.199 1.1345
54.170223 72.878 -7.2660
54.562763 73.489 -15.8113
54.958145 74.052 -24.3255
55.356396 74.606 -32.6693
55.757530 75.176 -40.8439
56.161572 75.755 -48.9648
56.568542 76.304 -57.0982
56.978462 76.790 -65.1017
57.391350 77.224 -72.6324
57.807232 77.691 -79.3779
58.226128 78.326 -85.4067
58.648056 79.220 -91.3364
59.073048 80.346 -98.0955
59.501114 81.567 -106.4207
59.932281 82.728 -116.4863
60.366577 83.720 -127.9329
60.804020 84.500 -140.0908
61.244629 85.086 -152.2180
61.688435 85.554 -163.6859
62.135452 86.022 -174.2565
62.585712 86.589 175.7244
63.039234 87.263 165.5715
63.496040 87.976 154.8307
63.956161 88.668 143.6059
64.419617 89.373 132.3215
64.886421 90.207 120.9885
65.356621 91.236 108.7944
65.830215 92.368 94.4355
66.307251 93.391 77.1065
66.787743 94.115 56.9602
67.271713 94.412 34.8828
67.759193 94.218 12.1639
68.250206 93.523 -9.8241
68.744774 92.376 -29.7004
69.242928 90.916 -46.4907
69.744690 89.365 -60.3297
70.250084 87.932 -72.6191
70.759148 86.616 -84.8423
71.271896 85.228 -97.0555
71.788361 83.617 -107.9379
72.308571 81.840 -116.3401
72.832550 80.111 -122.6060
73.360321 78.544 -127.9592
73.891922 77.019 -132.4542
74.427376 75.439 -134.8516
74.966705 73.978 -134.8812
75.509949 72.870 -134.2234
76.057121 72.027 -134.0089
76.608261 71.259 -133.1801
77.163399 70.663 -130.4053
77.722557 70.535 -126.1672
78.285767 70.967 -122.1031
78.853058 71.842 -119.5052
79.424461 73.038 -118.9719
80.000000 74.441 -120.9087
80.579712 75.939 -125.3453
81.163628 77.470 -131.9741
81.751770 79.010 -140.6991
82.344177 80.485 -151.9524
82.940880 81.739 -166.2432
83.541901 82.609 176.6580
84.147285 82.987 157.8193
84.757050 82.851 138.8528
85.371231 82.267 121.1964
85.989868 81.377 105.6555
86.612984 80.353 92.0165
87.240616 79.308 79.4065
87.872803 78.258 67.0110
88.509560 77.168 54.4176
89.150940 75.998 41.3728
89.796967 74.694 27.4048
90.447670 73.174 11.5020
91.103088 71.348 -8.5548
91.763260 69.216 -36.8489
92.428215 67.345 -77.1741
93.097992 67.382 -126.1685
93.772614 69.452 -171.8120
94.452133 71.691 153.7122
95.136566 73.420 128.8655
95.825966 74.674 109.6990
96.520363 75.575 93.5054
97.219788 76.199 79.0186
97.924286 76.609 65.7653
98.633881 76.864 53.4814
99.348625 76.999 42.0459
100.068542 77.032 31.5754
100.793686 76.990 22.0508
101.524078 76.885 13.0763
102.259766 76.693 4.5981
103.000778 76.442 -2.5776
103.747162 76.292 -7.8572
104.498962 76.404 -12.0364
105.256203 76.790 -16.5315
106.018929 77.398 -22.0615
106.787186 78.193 -28.7708
107.561012 79.092 -36.9216
108.340446 79.956 -46.9688
109.125526 80.660 -59.0881
109.916290 81.137 -72.7689
110.712791 81.374 -87.0371
111.515060 81.401 -101.1362
112.323143 81.266 -114.8605
113.137085 81.008 -128.2329
113.956924 80.638 -141.1652
114.782700 80.158 -153.4602
115.614464 79.597 -164.8224
116.452255 79.067 -175.0006
117.296112 78.728 175.5786
118.146095 78.629 165.6079
119.002228 78.618 153.9197
119.864563 78.463 140.5439
120.733154 77.957 126.8918
121.608040 77.014 115.7882
122.489258 75.967 110.2526
123.376869 75.848 109.4342
124.270905 77.059 107.0079
125.171425 78.623 98.2745
126.078468 79.897 84.1482
126.992081 80.830 67.3226
127.912323 81.484 49.2859
128.839233 81.862 30.3707
129.772842 81.914 10.9246
130.713242 81.605 -8.1118
131.660431 80.963 -25.7363
132.614502 80.051 -41.4603
133.575485 78.894 -54.6428
134.543427 77.522 -63.8938
135.518387 76.193 -68.3516
136.500412 75.514 -69.7998
137.489548 75.753 -72.4382
138.485855 76.300 -78.8208
139.489380 76.576 -87.8677
140.500168 76.506 -97.3032
141.518295 76.242 -105.8477
142.543793 75.909 -112.9897
143.576721 75.591 -118.4478
144.617142 75.430 -122.2708
145.665100 75.582 -125.3799
146.720642 75.995 -129.5127
147.783844 76.406 -135.7119
148.854752 76.640 -142.9634
149.933411 76.790 -149.5173
151.019897 77.027 -155.4180
152.114243 77.358 -161.8828
153.216522 77.690 -169.1775
154.326797 77.954 -176.8162
155.445114 78.124 175.3281
156.571533 78.192 167.2317
157.706116 78.125 159.4507
158.848923 77.939 152.9561
160.000000 77.810 148.2417
161.159424 77.982 144.6689
162.327255 78.537 140.5566
163.503540 79.317 134.2305
164.688354 80.078 125.2666
165.881760 80.662 114.2808
167.083801 81.024 101.8728
168.294571 81.127 88.3218
169.514099 80.876 74.3401
170.742462 80.246 61.4773
171.979736 79.409 50.4475
173.225967 78.539 40.2568
174.481232 77.611 30.0845
175.745605 76.497 19.9756
177.019119 75.048 10.5828
178.301880 73.128 3.8652
179.593933 70.651 4.2053
180.895340 67.965 17.0291
182.206177 67.191 39.2778
183.526520 69.339 56.4775
184.856430 72.003 61.1035
186.195984 74.248 56.4285
187.545227 75.941 45.8950
188.904266 77.008 31.7253
190.273132 77.492 16.6494
191.651932 77.567 2.6138
193.040726 77.408 -10.3904
194.439575 77.034 -23.3506
195.848572 76.248 -35.7053
197.267761 74.880 -43.9758
198.697250 73.345 -44.8120
200.137085 72.922 -41.3350
201.587372 73.773 -42.5698
203.048157 74.527 -52.3357
204.519531 74.499 -66.6401
206.001556 73.637 -80.2959
207.494324 72.042 -89.5256
208.997925 69.832 -90.7908
210.512405 67.534 -80.8032
212.037857 67.208 -62.3945
213.574371 69.625 -47.3647
215.122025 72.560 -43.9587
216.680893 75.069 -50.9844
218.251053 77.041 -64.7073
219.832581 78.427 -82.9302
221.425583 79.148 -103.8718
223.030121 79.169 -125.4114
224.646286 78.551 -145.5225
226.274170 77.414 -162.8711
227.913849 75.886 -176.5186
229.565399 74.213 173.9016
231.228928 72.802 166.5254
232.904510 71.777 158.0176
234.592224 70.696 147.8713
236.292191 69.248 139.0049
238.004456 67.911 130.9219
239.729126 67.272 114.9668
241.466309 66.673 81.0337
243.216080 65.685 24.5486
244.978516 65.705 -49.6318
246.753738 67.462 -126.8311
248.541809 69.390 161.9429
250.342850 70.858 94.3564
252.156937 72.136 29.9922
253.984161 73.397 -26.4155
255.824646 74.524 -70.9819
257.678467 75.544 -103.4146
259.545685 76.781 -126.6941
261.426483 78.297 -146.5518
263.320862 79.663 -167.6445
265.229004 80.518 169.6211
267.150970 80.821 147.4131
269.086853 80.730 127.7439
271.036774 80.533 111.6570
273.000824 80.735 98.5444
274.979095 81.636 84.6519
276.971710 82.739 65.5229
278.978760 83.469 40.6189
281.000336 83.613 11.6921
283.036591 83.062 -19.4971
285.087585 81.708 -50.3215
287.153442 79.438 -75.7664
289.234283 76.362 -90.2925
291.330200 73.560 -97.2920
293.441284 72.437 -106.8787
295.567688 72.514 -121.8301
297.709503 73.120 -140.8174
299.866821 73.876 -163.8987
302.039795 74.501 170.7126
304.228485 75.153 145.6616
306.433044 75.992 120.4868
308.653595 76.682 93.1890
310.890228 76.671 65.5830
313.143066 76.021 44.1646
315.412231 75.905 29.1448
317.697845 76.612 11.5889
320.000000 77.119 -11.3711
322.318848 77.136 -37.0525
324.654510 76.614 -64.5923
327.007080 75.160 -89.5654
329.376709 72.526 -100.0200
331.763519 70.031 -94.0400
334.167603 70.303 -91.9512
336.589142 71.697 -105.9978
339.028198 72.426 -132.1536
341.484924 72.262 -165.3667
343.959473 71.395 154.7437
346.451935 70.139 104.8567
348.962463 68.814 44.5715
351.491211 67.584 -16.7021
354.038239 66.389 -62.4570
356.603760 66.443 -83.1650
359.187866 69.103 -91.1650
361.790680 71.985 -107.5884
364.412354 73.736 -136.0439
367.053040 74.404 -168.1826
369.712860 74.401 160.4917
372.391968 73.956 127.6221
375.090454 72.653 90.8525
377.808533 69.932 49.9414
380.546265 65.949 -7.7563
383.303864 63.475 -93.1572
386.081451 65.195 -175.1753
388.879150 66.983 130.3916
391.697144 67.436 95.4692
394.535522 66.788 72.7554
397.394501 65.782 60.1992
400.274170 65.511 51.7456
403.174744 65.934 39.6206
406.096313 66.100 22.4077
409.039062 65.607 3.8696
412.003113 64.509 -11.4380
414.988647 63.593 -17.5962
417.995850 64.807 -19.5894
421.024811 67.100 -33.3096
424.075714 68.723 -61.9497
427.148743 69.506 -98.2578
430.244049 69.780 -137.0615
433.361786 69.803 -177.1592
436.502106 69.543 142.5317
439.665161 69.065 105.8677
442.851166 69.261 75.2124
446.060242 70.657 43.9521
449.292572 71.966 4.4180
452.548340 72.470 -41.3521
455.827698 72.291 -89.0151
459.130798 72.044 -137.1719
462.457855 72.465 168.5063
465.809021 72.862 103.6406
469.184448 72.386 34.8184
472.584381 70.880 -27.1055
476.008911 68.753 -75.8149
479.458252 67.169 -115.2144
482.932617 66.642 -156.7314
486.432159 65.766 159.3716
489.957031 64.266 120.9756
493.507477 62.937 89.5542
497.083618 62.337 71.7964
500.685699 63.322 65.8354
504.313873 65.024 53.4561
507.968323 67.402 36.7319
511.649292 70.175 15.9233
515.356934 72.266 -13.7188
519.091370 73.257 -49.3828
522.852966 73.132 -85.2588
526.641724 71.972 -116.0454
530.458008 70.170 -138.2236
534.301941 68.911 -156.2046
538.173706 68.635 177.4570
542.073547 67.698 137.6138
546.001648 65.157 91.4087
549.958191 61.536 47.7964
553.943420 60.096 12.4180
557.957520 62.794 -30.4229
562.000671 65.333 -85.2510
566.073181 66.024 -144.8901
570.175171 64.680 150.8745
574.306885 64.311 70.6758
578.468567 67.297 -23.5210
582.660400 69.714 -99.4712
586.882568 71.082 -144.1172
591.135376 72.975 -168.5728
595.419006 75.341 167.5400
599.733643 76.779 132.2949
604.079590 76.520 89.6523
608.456970 74.422 56.6094
612.866089 70.775 56.8145
617.307190 68.086 85.8989
621.780457 69.073 96.5518
626.286133 70.589 83.3799
630.824463 72.453 66.0273
635.395691 74.009 39.2690
640.000000 74.143 3.2412
644.637695 73.008 -32.9985
649.309021 71.496 -72.6089
654.014160 69.792 -124.3994
658.753418 67.748 174.4409
663.527039 66.456 113.4819
668.335205 66.377 60.8892
673.178284 66.087 23.2935
678.056396 65.872 7.4585
682.969849 67.243 -3.2651
687.918945 68.390 -27.6118
692.903870 68.415 -60.9038
697.924927 67.385 -102.2759
702.982422 65.591 -162.6880
708.076477 65.401 104.8486
713.207520 67.493 -3.4990
718.375732 68.845 -95.5713
723.581360 69.250 -172.1328
728.824707 69.304 111.4756
734.106079 69.250 36.4678
739.425720 69.200 -29.1191
744.783936 68.847 -86.4224
750.180908 68.198 -149.6719
755.617065 67.017 121.7598
761.092529 65.471 23.1152
766.607727 66.075 -48.6953
772.162903 67.973 -96.7549
777.758301 68.889 -137.4336
783.394287 68.690 -170.2637
789.071045 68.523 162.2305
794.789001 68.124 125.7520
800.548340 66.256 87.6650
806.349487 64.430 57.1055
812.192627 66.310 26.8037
818.078125 69.843 -14.5029
824.006226 71.732 -71.0918
829.977295 71.211 -122.6191
835.991699 69.539 -146.3018
842.049622 70.319 -154.1475
848.151428 72.763 -171.7822
854.297485 74.301 156.4854
860.488098 74.508 118.8682
866.723572 73.506 83.6660
873.004211 70.985 65.7773
879.330322 67.753 66.3408
885.702332 65.542 63.9883
892.120483 64.425 71.4277
898.585144 66.947 93.6426
905.096680 70.462 97.5439
911.655396 72.315 71.8887
918.261597 72.577 41.1387
924.915710 72.353 21.9326
931.618042 72.944 6.0742
938.368896 72.966 -17.0996
945.168762 71.952 -29.0811
952.017822 72.442 -35.6045
958.916504 73.286 -60.9570
965.865234 72.595 -98.6582
972.864319 70.568 -146.5723
979.914062 67.637 130.2109
987.014954 64.792 -10.5156
994.167236 65.230 175.9219
1001.371399 68.439 20.4453
1008.627747 70.463 -85.6387
1015.936646 70.419 -156.2432
1023.298584 69.052 143.1113
1030.713867 67.519 75.5430
1038.182739 67.394 4.9707
1045.705933 69.191 -52.9639
1053.283447 70.454 -102.1582
1060.916016 69.980 -138.0986
1068.603882 69.857 -157.3672
1076.347412 71.077 -177.8691
1084.147095 71.872 151.5361
1092.003296 71.278 118.5225
1099.916382 69.138 104.7695
1107.886841 67.738 111.3379
1115.915039 67.802 93.0879
1124.001343 66.604 30.5791
1132.146362 65.808 -78.1484
1140.350342 67.381 171.2383
1148.613770 69.106 108.8809
1156.937134 70.798 81.2627
1165.320801 72.910 62.6592
1173.765137 74.776 38.2246
1182.270752 74.712 8.2598
1190.838013 73.194 -9.9131
1199.467285 72.155 -22.9062
1208.159180 72.086 -32.2881
1216.913940 73.534 -43.3369
1225.732178 74.851 -66.4570
1234.614380 74.939 -95.9727
1243.560913 73.988 -123.1670
1252.572266 72.304 -142.9355
1261.648926 70.771 -146.1143
1270.791382 72.084 -143.3564
1280.000000 73.699 -161.5000
1289.275391 73.560 167.9033
1298.618042 72.352 142.7441
1308.028320 70.738 128.1377
1317.506836 70.142 132.4863
1327.054077 73.667 141.9150
1336.670410 77.416 130.7998
1346.356567 78.813 91.9033
1356.112793 78.208 49.8770
1365.939697 76.833 16.4990
1375.837891 75.109 -9.0801
1385.807739 73.251 -24.9541
1395.849854 72.404 -37.4297
1405.964844 72.342 -51.4238
1416.152954 73.132 -65.7158
1426.415039 74.511 -88.7070
1436.751465 74.677 -120.9346
1447.162720 73.715 -145.8184
1457.649414 74.149 -168.8184
1468.212158 75.039 139.2061
1478.851440 74.066 41.1592
1489.567871 71.405 -91.3984
1500.361816 68.957 157.5605
1511.234131 67.815 94.9609
1522.185059 68.419 23.9961
1533.215454 69.120 -108.9375
1544.325806 69.907 102.9814
1555.516602 70.407 -6.3633
1566.788574 69.560 -98.9707
1578.142090 67.122 164.5059
1589.578003 64.975 47.8916
1601.096680 64.213 -122.6904
1612.698975 63.172 13.3945
1624.385254 64.413 103.1240
1636.156250 67.757 -167.5410
1648.012451 69.378 1.8740
1659.954590 69.765 -152.2051
1671.983398 70.325 42.6719
1684.099243 70.224 -81.3281
1696.302856 68.862 -147.3867
1708.594971 67.201 177.2412
1720.976196 66.432 152.3262
1733.447144 67.516 98.9121
1746.008423 69.194 8.4844
1758.660645 70.682 -97.2227
1771.404663 70.623 169.1455
1784.240967 70.503 99.0322
1797.170288 70.854 22.4258
1810.193359 70.287 -61.1025
1823.310791 70.808 -136.1045
1836.523193 72.407 152.6162
1849.831421 72.986 73.9141
1863.236084 72.416 -25.6260
1876.737793 70.460 -178.2969
1890.337524 69.761 -31.8115
1904.035645 72.422 117.7949
1917.833008 74.411 -38.7871
1931.730469 75.085 -176.3506
1945.728638 74.265 46.6406
1959.828125 73.536 -64.7891
1974.029907 74.006 -159.2578
1988.334473 73.834 102.5312
2002.742798 72.902 -17.0723
2017.255493 72.136 -174.3555
2031.873291 72.782 26.2852
2046.597168 73.260 -80.1797
2061.427734 73.498 -139.6660
2076.365479 73.209 155.6152
2091.411865 71.395 59.3223
2106.566895 71.787 -74.6230
2121.832031 73.858 168.8281
2137.207764 74.552 96.6387
2152.694824 73.972 51.0234
2168.294189 73.542 14.2734
2184.006592 73.160 -34.2031
2199.832764 71.253 -80.5176
2215.773682 69.570 -127.0410
2231.830078 68.749 152.2949
2248.002686 68.654 74.0645
2264.292725 70.958 23.8301
2280.700684 73.895 -19.7090
2297.227539 75.436 -79.1992
2313.874268 75.078 -172.8809
2330.641602 72.972 47.1172
2347.530273 72.005 -89.9062
2364.541504 72.891 169.4961
2381.676025 72.620 49.2207
2398.934570 71.601 -106.3965
2416.318359 72.303 125.7188
2433.827881 72.913 21.5820
2451.464355 73.732 -87.4883
2469.228760 75.235 171.3711
2487.121826 76.657 88.1992
2505.144531 77.352 -17.2969
2523.297852 76.320 -175.5664
2541.582764 75.093 49.4570
2560.000000 76.253 -21.4395
2578.550781 77.152 -93.8184
2597.236084 76.074 143.7539
2616.056641 75.215 -10.0234
2635.013672 75.709 -117.8750
2654.108154 75.774 -177.9980
2673.340820 74.841 140.1582
2692.713135 74.649 80.1680
2712.225586 75.011 -36.7539
2731.879395 76.386 -169.3613
2751.675781 77.077 92.6660
2771.615479 76.401 32.7773
2791.699707 75.455 -19.9316
2811.929688 74.489 -97.7266
2832.305908 73.731 142.9316
2852.830078 73.622 15.2910
2873.502930 73.523 -84.4805
2894.325439 72.950 -164.2734
2915.298828 72.066 115.7227
2936.424316 71.417 13.3008
2957.702881 71.162 -120.8867
2979.135742 72.003 90.2363
3000.723633 73.043 -44.8477
3022.468262 72.160 177.5508
3044.370117 69.835 -5.3770
3066.430908 68.544 130.2695
3088.651611 69.145 -84.9648
3111.033203 71.321 91.7793
3133.577148 73.190 -119.6270
3156.284180 74.677 -0.6426
3179.156006 74.826 146.8457
3202.193359 73.030 -20.9023
3225.397949 71.783 -164.2871
3248.770508 73.385 82.9258
3272.312500 75.254 6.8438
3296.024902 75.336 -51.4355
3319.909180 74.179 -94.4219
3343.966797 73.925 -132.6875
3368.198486 74.031 171.3086
3392.605713 73.284 83.7031
3417.189941 72.168 -30.9180
3441.952393 72.652 -134.5449
3466.894287 74.550 153.4551
3492.016846 75.398 93.5977
3517.321289 74.039 39.8496
3542.809326 72.594 -26.5488
3568.481934 73.252 -161.0566
3594.340576 74.391 28.2422
3620.386719 74.166 -96.5254
3646.621582 72.740 144.4824
3673.046387 73.288 -56.0742
3699.662842 75.359 52.7578
3726.472168 76.699 -124.9219
3753.475586 76.661 141.8594
3780.675049 75.119 87.8633
3808.071289 74.011 47.0586
3835.666016 74.733 -19.7070
3863.460938 74.515 177.1680
3891.457275 72.057 -114.1719
3919.656250 70.645 -86.6016
3948.059814 72.264 -54.2324
3976.668945 75.017 37.3379
4005.485596 76.681 -120.3477
4034.510986 76.972 144.0664
4063.746582 76.514 61.1758
4093.194336 75.279 -23.6699
4122.855469 74.135 -110.3320
4152.730957 73.875 155.0293
4182.823730 74.119 47.3965
4213.133789 73.406 -96.2793
4243.664062 71.267 56.8340
4274.415527 70.762 165.8184
4305.389648 71.674 -110.0527
4336.588379 72.040 -109.4805
4368.013184 73.107 -173.0703
4399.665527 73.995 155.5625
4431.547363 73.239 -161.2832
4463.660156 72.963 -83.0469
4496.005371 73.678 8.6348
4528.585449 74.659 121.4297
4561.401367 74.505 -132.2070
4594.455078 72.364 -92.3105
4627.748535 69.830 -57.1719
4661.283203 69.622 56.3125
4695.060547 71.341 -117.4609
4729.083008 71.580 49.7773
4763.352051 70.342 128.0234
4797.869141 70.186 -133.4570
4832.636719 69.343 84.8516
4867.655762 68.138 17.3594
4902.928711 69.329 -61.1094
4938.457520 70.735 141.3750
4974.243652 71.674 -35.8594
5010.289062 71.346 -172.4375
5046.595703 70.016 36.1641
5083.165527 69.880 125.1797
5120.000000 69.866 91.1484
5157.101562 69.375 -12.1172
5194.472168 67.952 -155.8555
5232.113281 66.494 -14.2578
5270.027344 66.671 -43.8945
5308.216309 68.651 -99.9180
5346.681641 71.188 -1.4805
5385.426270 73.027 -41.4844
5424.451172 73.050 53.3203
5463.758789 71.892 104.1094
5503.351562 71.292 98.7891
5543.230957 72.492 150.2227
5583.399414 74.156 -73.7539
5623.859375 75.391 67.7500
5664.611816 76.512 -121.7500
5705.660156 76.063 69.3594
5747.005859 74.585 153.7891
5788.650879 74.442 88.7773
5830.597656 75.410 34.0273
5872.848633 75.478 38.5391
5915.405762 76.066 61.5977
5958.271484 76.359 76.7656
6001.447266 75.502 89.6289
6044.936523 75.657 162.1016
6088.740234 75.746 -17.6758
6132.861816 75.636 -176.1445
6177.303223 74.661 -78.1875
6222.066406 74.164 -67.7148
6267.154297 73.939 -37.3125
6312.568359 73.487 -1.1328
6358.312012 73.949 47.1016
6404.386719 73.094 157.0859
6450.795898 72.038 -90.5742
6497.541016 73.056 -14.0859
6544.625000 73.854 80.4023
6592.049805 73.328 152.7422
6639.818359 72.667 -167.4492
6687.933594 72.188 -117.6484
6736.396973 72.465 -18.5234
6785.211426 72.958 166.6016
6834.379883 72.908 38.9922
6883.904785 72.458 -153.8320
6933.788574 71.737 -109.7617
6984.033691 71.963 -86.4023
7034.642578 73.342 8.9648
7085.618652 75.412 -164.4492
7136.963867 76.100 75.3281
7188.681152 74.947 -48.6836
7240.773438 74.793 133.0508
7293.243164 76.099 -70.8047
7346.092773 75.978 121.0469
7399.325684 74.552 -92.0352
7452.944336 73.766 -44.9141
7506.951172 74.746 43.5195
7561.350098 76.444 -123.2656
7616.142578 76.967 63.6992
7671.332031 76.184 -141.5938
7726.921875 76.571 43.6289
7782.914551 76.734 -108.0312
7839.312500 75.218 80.7344
7896.119629 73.960 -157.8477
7953.337891 73.670 -147.6602
8010.971191 73.683 -168.7852
8069.021973 73.458 -130.1836
8127.493164 72.937 -101.2344
8186.388672 72.447 -134.9727
8245.710938 73.475 73.1523
8305.461914 74.827 -74.5664
8365.647461 74.392 -106.3086
8426.267578 75.299 -114.6719
8487.328125 76.930 -94.6719
8548.831055 76.569 -50.0781
8610.779297 74.563 -54.2617
8673.176758 72.691 -96.7344
8736.026367 71.830 -91.0391
8799.331055 71.470 -39.1484
8863.094727 71.565 -34.9922
8927.320312 73.143 23.9141
8992.010742 74.311 164.5547
9057.170898 73.825 -112.7344
9122.802734 72.741 162.9492
9188.910156 73.138 40.7148
9255.497070 73.581 -13.6289
9322.566406 72.329 -107.3359
9390.121094 72.013 118.4570
9458.166016 72.710 64.9336
9526.704102 73.349 61.7305
9595.738281 74.198 116.4297
9665.273438 73.778 -114.4219
9735.311523 71.829 -26.4102
9805.857422 70.835 -132.8516
9876.915039 72.331 -19.8359
9948.487305 73.681 -154.2930
10020.578125 73.524 -156.1406
10093.191406 71.958 91.8203
10166.331055 69.528 145.2578
10240.000000 68.789 -125.6484
10314.203125 70.014 -26.6172
10388.944336 71.045 78.8906
10464.226562 70.557 -14.2344
10540.054688 69.994 42.4219
10616.432617 70.111 172.8984
10693.363281 69.605 -97.4844
10770.852539 69.773 -94.6016
10848.902344 69.680 -124.3047
10927.517578 68.729 -116.6953
11006.703125 67.722 -75.0000
11086.461914 68.072 -147.7656
11166.798828 69.600 9.0625
11247.718750 69.837 -142.6172
11329.223633 68.191 124.2266
11411.320312 67.132 13.4062
11494.011719 67.470 -165.3438
11577.301758 67.762 -82.0391
11661.195312 67.622 -77.5938
11745.697266 67.850 -68.2188
11830.811523 68.009 123.9844
11916.542969 69.681 117.1562
12002.894531 70.753 129.3906
12089.873047 69.643 35.2812
12177.480469 68.289 -117.4297
12265.723633 68.665 107.7031
12354.606445 68.693 -8.0547
12444.132812 67.248 -148.7188
12534.308594 65.278 -67.5703
12625.136719 64.424 -69.5156
12716.624023 64.357 -45.5859
12808.773438 64.779 61.5625
12901.591797 64.964 -160.2422
12995.082031 65.907 -17.8359
13089.250000 67.512 154.8047
13184.099609 69.542 86.3984
13279.636719 70.956 106.5625
13375.867188 70.732 59.2500
13472.793945 69.811 -100.3281
13570.422852 68.488 12.6328
13668.759766 66.793 10.3125
13767.809570 65.284 -43.8047
13867.577148 65.230 -28.2500
13968.067383 66.114 102.2969
14069.285156 66.821 -43.0625
14171.237305 66.350 144.0078
14273.927734 65.489 -144.5000
14377.362305 65.577 -66.1719
14481.546875 66.295 -158.0859
14586.486328 66.035 -132.8906
14692.185547 65.484 75.0156
14798.651367 66.424 -38.8125
14905.888672 69.170 165.9922
15013.902344 71.203 168.8047
15122.700195 71.882 -142.3359
15232.285156 71.000 -156.6797
15342.664062 68.283 164.4531
15453.843750 66.639 -84.2188
15565.829102 66.320 -127.9688
15678.625000 64.808 -171.4766
15792.239258 63.830 33.3672
15906.675781 63.230 -166.3203
16021.942383 62.254 -48.5312
16138.043945 62.096 88.5312
16254.986328 62.306 -143.0391
16372.777344 61.506 -92.7422
16491.421875 61.277 -57.2500
16610.923828 63.090 37.7578
16731.294922 63.898 -148.1250
16852.535156 63.454 3.0938
16974.656250 64.431 152.6953
17097.662109 66.691 39.9531
17221.558594 67.669 -9.1094
17346.353516 67.163 -36.7734
17472.052734 66.577 -81.8750
17598.662109 66.649 111.1719
17726.189453 66.291 10.2578
17854.640625 66.748 90.2266
17984.021484 67.881 -17.5859
18114.341797 68.777 43.1719
18245.605469 68.615 177.1875
18377.820312 69.751 -74.4453
18510.994141 70.925 52.3125
18645.132812 70.266 -132.7500
18780.242188 68.116 -68.8125
18916.332031 66.338 66.5703
19053.408203 66.579 147.4375
19191.476562 67.347 69.6953
19330.546875 67.275 59.2344
19470.623047 65.811 34.4453
19611.714844 63.990 132.1641
19753.830078 63.067 29.5391
19896.974609 64.380 26.2812
